{"type": "ERezeptWithDocuments", "payload": 
    [
        {
            "bundleWithAccessCodeOrThrowables": [
                {
                    "accessCode": "70f984782291de8c99c1e4e23697acfc0dd9a586f72fe7f4cb686f13d3f838cc",
                    "bundle": {
                        "resourceType": "Bundle",
                        "id": "6944b640-d8cf-4045-ba4e-18c1098b0982",
                        "meta": {
                            "profile": [
                                "https://fhir.kbv.de/StructureDefinition/KBV_PR_ERP_Bundle|1.0.1"
                            ]
                        },
                        "identifier": {
                            "system": "https://gematik.de/fhir/NamingSystem/PrescriptionID",
                            "value": "160.001.678.446.700.88"
                        },
                        "type": "document",
                        "timestamp": "2021-06-30T11:33:24.857+02:00",
                        "entry": [
                            {
                                "fullUrl": "http://pvs.praxis.local/fhir/Composition/b74c2441-39f2-41a9-ad1e-a96bb22390e8",
                                "resource": {
                                    "resourceType": "Composition",
                                    "id": "b74c2441-39f2-41a9-ad1e-a96bb22390e8",
                                    "meta": {
                                        "profile": [
                                            "https://fhir.kbv.de/StructureDefinition/KBV_PR_ERP_Composition|1.0.1"
                                        ]
                                    },
                                    "extension": [
                                        {
                                            "url": "https://fhir.kbv.de/StructureDefinition/KBV_EX_FOR_Legal_basis",
                                            "valueCoding": {
                                                "system": "https://fhir.kbv.de/CodeSystem/KBV_CS_SFHIR_KBV_STATUSKENNZEICHEN",
                                                "code": "00"
                                            }
                                        }
                                    ],
                                    "status": "final",
                                    "type": {
                                        "coding": [
                                            {
                                                "system": "https://fhir.kbv.de/CodeSystem/KBV_CS_SFHIR_KBV_FORMULAR_ART",
                                                "code": "e16A"
                                            }
                                        ]
                                    },
                                    "subject": {
                                        "reference": "Patient/bf819aa1-bda1-4125-bcea-9d64f505a72b"
                                    },
                                    "date": "2021-06-30T11:33:24+02:00",
                                    "author": [
                                        {
                                            "reference": "Practitioner/e41a51c4-e89e-408b-8f05-398a0fec3ac9",
                                            "type": "Practitioner"
                                        },
                                        {
                                            "type": "Device",
                                            "identifier": {
                                                "system": "https://fhir.kbv.de/NamingSystem/KBV_NS_FOR_Pruefnummer",
                                                "value": "Y/1/1807/36/112"
                                            }
                                        }
                                    ],
                                    "title": "elektronische Arzneimittelverordnung",
                                    "custodian": {
                                        "reference": "Organization/b72d9604-f83e-4fad-85ce-aa6678ba7955"
                                    },
                                    "section": [
                                        {
                                            "code": {
                                                "coding": [
                                                    {
                                                        "system": "https://fhir.kbv.de/CodeSystem/KBV_CS_ERP_Section_Type",
                                                        "code": "Prescription"
                                                    }
                                                ]
                                            },
                                            "entry": [
                                                {
                                                    "reference": "MedicationRequest/9181ef58-871f-4469-8507-2dc1a5f2030e"
                                                }
                                            ]
                                        },
                                        {
                                            "code": {
                                                "coding": [
                                                    {
                                                        "system": "https://fhir.kbv.de/CodeSystem/KBV_CS_ERP_Section_Type",
                                                        "code": "Coverage"
                                                    }
                                                ]
                                            },
                                            "entry": [
                                                {
                                                    "reference": "Coverage/68414867-9007-4931-9a86-b083c6d0b258"
                                                }
                                            ]
                                        }
                                    ]
                                }
                            },
                            {
                                "fullUrl": "http://pvs.praxis.local/fhir/MedicationRequest/9181ef58-871f-4469-8507-2dc1a5f2030e",
                                "resource": {
                                    "resourceType": "MedicationRequest",
                                    "id": "9181ef58-871f-4469-8507-2dc1a5f2030e",
                                    "meta": {
                                        "profile": [
                                            "https://fhir.kbv.de/StructureDefinition/KBV_PR_ERP_Prescription|1.0.1"
                                        ]
                                    },
                                    "extension": [
                                        {
                                            "url": "https://fhir.kbv.de/StructureDefinition/KBV_EX_ERP_StatusCoPayment",
                                            "valueCoding": {
                                                "system": "https://fhir.kbv.de/CodeSystem/KBV_CS_ERP_StatusCoPayment",
                                                "code": "1"
                                            }
                                        },
                                        {
                                            "url": "https://fhir.kbv.de/StructureDefinition/KBV_EX_ERP_EmergencyServicesFee",
                                            "valueBoolean": false
                                        },
                                        {
                                            "url": "https://fhir.kbv.de/StructureDefinition/KBV_EX_ERP_BVG",
                                            "valueBoolean": false
                                        },
                                        {
                                            "url": "https://fhir.kbv.de/StructureDefinition/KBV_EX_ERP_Multiple_Prescription",
                                            "extension": [
                                                {
                                                    "url": "Kennzeichen",
                                                    "valueBoolean": false
                                                }
                                            ]
                                        }
                                    ],
                                    "status": "active",
                                    "intent": "order",
                                    "medicationReference": {
                                        "reference": "urn:uuid:1128f02b-3211-4342-9de6-b32f320290b0"
                                    },
                                    "subject": {
                                        "reference": "urn:uuid:bf819aa1-bda1-4125-bcea-9d64f505a72b"
                                    },
                                    "authoredOn": "2021-06-30",
                                    "requester": {
                                        "reference": "urn:uuid:e41a51c4-e89e-408b-8f05-398a0fec3ac9"
                                    },
                                    "insurance": [
                                        {
                                            "reference": "urn:uuid:68414867-9007-4931-9a86-b083c6d0b258"
                                        }
                                    ],
                                    "dosageInstruction": [
                                        {
                                            "extension": [
                                                {
                                                    "url": "https://fhir.kbv.de/StructureDefinition/KBV_EX_ERP_DosageFlag",
                                                    "valueBoolean": false
                                                }
                                            ]
                                        }
                                    ],
                                    "dispenseRequest": {
                                        "validityPeriod": {
                                            "start": "2021-06-30T00:00:00+02:00"
                                        },
                                        "quantity": {
                                            "value": 1,
                                            "system": "http://unitsofmeasure.org",
                                            "code": "{Package}"
                                        }
                                    },
                                    "substitution": {
                                        "allowedBoolean": true
                                    }
                                }
                            },
                            {
                                "fullUrl": "http://pvs.praxis.local/fhir/Medication/1128f02b-3211-4342-9de6-b32f320290b0",
                                "resource": {
                                    "resourceType": "Medication",
                                    "id": "1128f02b-3211-4342-9de6-b32f320290b0",
                                    "meta": {
                                        "profile": [
                                            "https://fhir.kbv.de/StructureDefinition/KBV_PR_ERP_Medication_PZN|1.0.1"
                                        ]
                                    },
                                    "extension": [
                                        {
                                            "url": "https://fhir.kbv.de/StructureDefinition/KBV_EX_ERP_Medication_Category",
                                            "valueCoding": {
                                                "system": "https://fhir.kbv.de/CodeSystem/KBV_CS_ERP_Medication_Category",
                                                "code": "00"
                                            }
                                        },
                                        {
                                            "url": "https://fhir.kbv.de/StructureDefinition/KBV_EX_ERP_Medication_Vaccine",
                                            "valueBoolean": false
                                        },
                                        {
                                            "url": "http://fhir.de/StructureDefinition/normgroesse",
                                            "valueCode": "N1"
                                        }
                                    ],
                                    "code": {
                                        "coding": [
                                            {
                                                "system": "http://fhir.de/CodeSystem/ifa/pzn",
                                                "code": "00987472"
                                            }
                                        ],
                                        "text": "Amiodaron ratio 200mg Tab TAB N2 50 St"
                                    },
                                    "form": {
                                        "coding": [
                                            {
                                                "system": "https://fhir.kbv.de/CodeSystem/KBV_CS_SFHIR_KBV_DARREICHUNGSFORM",
                                                "code": "TAB"
                                            }
                                        ]
                                    }
                                }
                            },
                            {
                                "fullUrl": "http://pvs.praxis.local/fhir/Patient/bf819aa1-bda1-4125-bcea-9d64f505a72b",
                                "resource": {
                                    "resourceType": "Patient",
                                    "id": "bf819aa1-bda1-4125-bcea-9d64f505a72b",
                                    "meta": {
                                        "profile": [
                                            "https://fhir.kbv.de/StructureDefinition/KBV_PR_FOR_Patient|1.0.3"
                                        ]
                                    },
                                    "identifier": [
                                        {
                                            "use": "official",
                                            "type": {
                                                "coding": [
                                                    {
                                                        "system": "http://fhir.de/CodeSystem/identifier-type-de-basis",
                                                        "code": "GKV"
                                                    }
                                                ]
                                            },
                                            "system": "http://fhir.de/NamingSystem/gkv/kvid-10",
                                            "value": "X999999999"
                                        }
                                    ],
                                    "name": [
                                        {
                                            "use": "official",
                                            "family": "Bella Kaiser",
                                            "_family": {
                                                "extension": [
                                                    {
                                                        "url": "http://hl7.org/fhir/StructureDefinition/humanname-own-name",
                                                        "valueString": "Kaiser"
                                                    }
                                                ]
                                            },
                                            "given": [
                                                "Bella"
                                            ]
                                        }
                                    ],
                                    "birthDate": "1996-07-01",
                                    "address": [
                                        {
                                            "type": "both",
                                            "line": [
                                                "Bahnhofstr. 34"
                                            ],
                                            "_line": [
                                                {
                                                    "extension": [
                                                        {
                                                            "url": "http://hl7.org/fhir/StructureDefinition/iso21090-ADXP-streetName",
                                                            "valueString": "Bahnhofstr."
                                                        },
                                                        {
                                                            "url": "http://hl7.org/fhir/StructureDefinition/iso21090-ADXP-houseNumber",
                                                            "valueString": "34"
                                                        }
                                                    ]
                                                }
                                            ],
                                            "city": "Plaidt",
                                            "postalCode": "56637",
                                            "country": "D"
                                        }
                                    ]
                                }
                            },
                            {
                                "fullUrl": "http://pvs.praxis.local/fhir/Practitioner/e41a51c4-e89e-408b-8f05-398a0fec3ac9",
                                "resource": {
                                    "resourceType": "Practitioner",
                                    "id": "e41a51c4-e89e-408b-8f05-398a0fec3ac9",
                                    "meta": {
                                        "profile": [
                                            "https://fhir.kbv.de/StructureDefinition/KBV_PR_FOR_Practitioner|1.0.3"
                                        ]
                                    },
                                    "identifier": [
                                        {
                                            "use": "official",
                                            "type": {
                                                "coding": [
                                                    {
                                                        "system": "http://terminology.hl7.org/CodeSystem/v2-0203",
                                                        "code": "LANR"
                                                    }
                                                ]
                                            },
                                            "system": "https://fhir.kbv.de/NamingSystem/KBV_NS_Base_ANR",
                                            "value": "111111101"
                                        }
                                    ],
                                    "name": [
                                        {
                                            "use": "official",
                                            "family": "Dr. Max Allgemeinmediziner Mustermann",
                                            "_family": {
                                                "extension": [
                                                    {
                                                        "url": "http://hl7.org/fhir/StructureDefinition/humanname-own-name",
                                                        "valueString": "Mustermann"
                                                    }
                                                ]
                                            },
                                            "given": [
                                                "Max"
                                            ],
                                            "prefix": [
                                                "Dr."
                                            ],
                                            "_prefix": [
                                                {
                                                    "extension": [
                                                        {
                                                            "url": "http://hl7.org/fhir/StructureDefinition/iso21090-EN-qualifier",
                                                            "valueCode": "AC"
                                                        }
                                                    ]
                                                }
                                            ]
                                        }
                                    ],
                                    "qualification": [
                                        {
                                            "code": {
                                                "coding": [
                                                    {
                                                        "system": "https://fhir.kbv.de/CodeSystem/KBV_CS_FOR_Qualification_Type",
                                                        "code": "00"
                                                    }
                                                ]
                                            }
                                        },
                                        {
                                            "code": {
                                                "text": "Arzt"
                                            }
                                        }
                                    ]
                                }
                            },
                            {
                                "fullUrl": "http://pvs.praxis.local/fhir/Organization/b72d9604-f83e-4fad-85ce-aa6678ba7955",
                                "resource": {
                                    "resourceType": "Organization",
                                    "id": "b72d9604-f83e-4fad-85ce-aa6678ba7955",
                                    "meta": {
                                        "profile": [
                                            "https://fhir.kbv.de/StructureDefinition/KBV_PR_FOR_Organization|1.0.3"
                                        ]
                                    },
                                    "identifier": [
                                        {
                                            "use": "official",
                                            "type": {
                                                "coding": [
                                                    {
                                                        "system": "http://terminology.hl7.org/CodeSystem/v2-0203",
                                                        "code": "BSNR"
                                                    }
                                                ]
                                            },
                                            "system": "https://fhir.kbv.de/NamingSystem/KBV_NS_Base_BSNR",
                                            "value": "471234567"
                                        }
                                    ],
                                    "name": "Zentral",
                                    "telecom": [
                                        {
                                            "system": "phone",
                                            "value": "026180000"
                                        }
                                    ],
                                    "address": [
                                        {
                                            "type": "both",
                                            "line": [
                                                "Maria Trost 25"
                                            ],
                                            "_line": [
                                                {
                                                    "extension": [
                                                        {
                                                            "url": "http://hl7.org/fhir/StructureDefinition/iso21090-ADXP-streetName",
                                                            "valueString": "Maria Trost"
                                                        },
                                                        {
                                                            "url": "http://hl7.org/fhir/StructureDefinition/iso21090-ADXP-houseNumber",
                                                            "valueString": "25"
                                                        }
                                                    ]
                                                }
                                            ],
                                            "city": "Koblenz",
                                            "postalCode": "56070",
                                            "country": "D"
                                        }
                                    ]
                                }
                            },
                            {
                                "fullUrl": "http://pvs.praxis.local/fhir/Coverage/68414867-9007-4931-9a86-b083c6d0b258",
                                "resource": {
                                    "resourceType": "Coverage",
                                    "id": "68414867-9007-4931-9a86-b083c6d0b258",
                                    "meta": {
                                        "profile": [
                                            "https://fhir.kbv.de/StructureDefinition/KBV_PR_FOR_Coverage|1.0.3"
                                        ]
                                    },
                                    "extension": [
                                        {
                                            "url": "http://fhir.de/StructureDefinition/gkv/besondere-personengruppe",
                                            "valueCoding": {
                                                "system": "https://fhir.kbv.de/CodeSystem/KBV_CS_SFHIR_KBV_PERSONENGRUPPE",
                                                "code": "00"
                                            }
                                        },
                                        {
                                            "url": "http://fhir.de/StructureDefinition/gkv/dmp-kennzeichen",
                                            "valueCoding": {
                                                "system": "https://fhir.kbv.de/CodeSystem/KBV_CS_SFHIR_KBV_DMP",
                                                "code": "00"
                                            }
                                        },
                                        {
                                            "url": "http://fhir.de/StructureDefinition/gkv/versichertenart",
                                            "valueCoding": {
                                                "system": "https://fhir.kbv.de/CodeSystem/KBV_CS_SFHIR_KBV_VERSICHERTENSTATUS",
                                                "code": "1"
                                            }
                                        },
                                        {
                                            "url": "http://fhir.de/StructureDefinition/gkv/wop",
                                            "valueCoding": {
                                                "system": "https://fhir.kbv.de/CodeSystem/KBV_CS_SFHIR_ITA_WOP",
                                                "code": "00"
                                            }
                                        }
                                    ],
                                    "status": "active",
                                    "type": {
                                        "coding": [
                                            {
                                                "system": "http://fhir.de/CodeSystem/versicherungsart-de-basis",
                                                "code": "GKV"
                                            }
                                        ]
                                    },
                                    "beneficiary": {
                                        "reference": "urn:uuid:bf819aa1-bda1-4125-bcea-9d64f505a72b"
                                    },
                                    "payor": [
                                        {
                                            "identifier": {
                                                "use": "official",
                                                "type": {
                                                    "coding": [
                                                        {
                                                            "system": "http://terminology.hl7.org/CodeSystem/v2-0203",
                                                            "code": "XX"
                                                        }
                                                    ]
                                                },
                                                "system": "http://fhir.de/NamingSystem/arge-ik/iknr",
                                                "value": "105330226"
                                            },
                                            "display": "DAK-GESUNDHEIT"
                                        }
                                    ]
                                }
                            }
                        ]
                    }
                },
                {
                    "accessCode": "9d21522afcb23c670450d4851eb4e6a8d43b198ef6663d9bc0657fa6e869bf51",
                    "bundle": {
                        "resourceType": "Bundle",
                        "id": "503e15b1-c74e-486e-bd72-6ec5ff86b316",
                        "meta": {
                            "profile": [
                                "https://fhir.kbv.de/StructureDefinition/KBV_PR_ERP_Bundle|1.0.1"
                            ]
                        },
                        "identifier": {
                            "system": "https://gematik.de/fhir/NamingSystem/PrescriptionID",
                            "value": "160.001.678.446.900.70"
                        },
                        "type": "document",
                        "timestamp": "2021-06-30T11:33:26.079+02:00",
                        "entry": [
                            {
                                "fullUrl": "http://pvs.praxis.local/fhir/Composition/6d113342-d2c3-4b2c-b619-bc590f41325b",
                                "resource": {
                                    "resourceType": "Composition",
                                    "id": "6d113342-d2c3-4b2c-b619-bc590f41325b",
                                    "meta": {
                                        "profile": [
                                            "https://fhir.kbv.de/StructureDefinition/KBV_PR_ERP_Composition|1.0.1"
                                        ]
                                    },
                                    "extension": [
                                        {
                                            "url": "https://fhir.kbv.de/StructureDefinition/KBV_EX_FOR_Legal_basis",
                                            "valueCoding": {
                                                "system": "https://fhir.kbv.de/CodeSystem/KBV_CS_SFHIR_KBV_STATUSKENNZEICHEN",
                                                "code": "00"
                                            }
                                        }
                                    ],
                                    "status": "final",
                                    "type": {
                                        "coding": [
                                            {
                                                "system": "https://fhir.kbv.de/CodeSystem/KBV_CS_SFHIR_KBV_FORMULAR_ART",
                                                "code": "e16A"
                                            }
                                        ]
                                    },
                                    "subject": {
                                        "reference": "Patient/fbc28d81-cd86-4733-9e10-4fabe7b0f913"
                                    },
                                    "date": "2021-06-30T11:33:25+02:00",
                                    "author": [
                                        {
                                            "reference": "Practitioner/0ec6a786-8fb9-418f-ac99-7959f8318070",
                                            "type": "Practitioner"
                                        },
                                        {
                                            "type": "Device",
                                            "identifier": {
                                                "system": "https://fhir.kbv.de/NamingSystem/KBV_NS_FOR_Pruefnummer",
                                                "value": "Y/1/1807/36/112"
                                            }
                                        }
                                    ],
                                    "title": "elektronische Arzneimittelverordnung",
                                    "custodian": {
                                        "reference": "Organization/c7e94c6e-7694-4a5d-af68-5e476005a46d"
                                    },
                                    "section": [
                                        {
                                            "code": {
                                                "coding": [
                                                    {
                                                        "system": "https://fhir.kbv.de/CodeSystem/KBV_CS_ERP_Section_Type",
                                                        "code": "Prescription"
                                                    }
                                                ]
                                            },
                                            "entry": [
                                                {
                                                    "reference": "MedicationRequest/8511fa38-b5cc-432b-ac55-e2840df88840"
                                                }
                                            ]
                                        },
                                        {
                                            "code": {
                                                "coding": [
                                                    {
                                                        "system": "https://fhir.kbv.de/CodeSystem/KBV_CS_ERP_Section_Type",
                                                        "code": "Coverage"
                                                    }
                                                ]
                                            },
                                            "entry": [
                                                {
                                                    "reference": "Coverage/e269cecc-7643-48f8-845c-df8df292f12b"
                                                }
                                            ]
                                        }
                                    ]
                                }
                            },
                            {
                                "fullUrl": "http://pvs.praxis.local/fhir/MedicationRequest/8511fa38-b5cc-432b-ac55-e2840df88840",
                                "resource": {
                                    "resourceType": "MedicationRequest",
                                    "id": "8511fa38-b5cc-432b-ac55-e2840df88840",
                                    "meta": {
                                        "profile": [
                                            "https://fhir.kbv.de/StructureDefinition/KBV_PR_ERP_Prescription|1.0.1"
                                        ]
                                    },
                                    "extension": [
                                        {
                                            "url": "https://fhir.kbv.de/StructureDefinition/KBV_EX_ERP_StatusCoPayment",
                                            "valueCoding": {
                                                "system": "https://fhir.kbv.de/CodeSystem/KBV_CS_ERP_StatusCoPayment",
                                                "code": "1"
                                            }
                                        },
                                        {
                                            "url": "https://fhir.kbv.de/StructureDefinition/KBV_EX_ERP_EmergencyServicesFee",
                                            "valueBoolean": false
                                        },
                                        {
                                            "url": "https://fhir.kbv.de/StructureDefinition/KBV_EX_ERP_BVG",
                                            "valueBoolean": false
                                        },
                                        {
                                            "url": "https://fhir.kbv.de/StructureDefinition/KBV_EX_ERP_Multiple_Prescription",
                                            "extension": [
                                                {
                                                    "url": "Kennzeichen",
                                                    "valueBoolean": false
                                                }
                                            ]
                                        }
                                    ],
                                    "status": "active",
                                    "intent": "order",
                                    "medicationReference": {
                                        "reference": "urn:uuid:6fc01162-1e08-4231-97d3-f19ed8d3d848"
                                    },
                                    "subject": {
                                        "reference": "urn:uuid:fbc28d81-cd86-4733-9e10-4fabe7b0f913"
                                    },
                                    "authoredOn": "2021-06-30",
                                    "requester": {
                                        "reference": "urn:uuid:0ec6a786-8fb9-418f-ac99-7959f8318070"
                                    },
                                    "insurance": [
                                        {
                                            "reference": "urn:uuid:e269cecc-7643-48f8-845c-df8df292f12b"
                                        }
                                    ],
                                    "dosageInstruction": [
                                        {
                                            "extension": [
                                                {
                                                    "url": "https://fhir.kbv.de/StructureDefinition/KBV_EX_ERP_DosageFlag",
                                                    "valueBoolean": true
                                                }
                                            ],
                                            "text": ">>1-0-1-0-0<<"
                                        }
                                    ],
                                    "dispenseRequest": {
                                        "validityPeriod": {
                                            "start": "2021-06-30T00:00:00+02:00"
                                        },
                                        "quantity": {
                                            "value": 1,
                                            "system": "http://unitsofmeasure.org",
                                            "code": "{Package}"
                                        }
                                    },
                                    "substitution": {
                                        "allowedBoolean": false
                                    }
                                }
                            },
                            {
                                "fullUrl": "http://pvs.praxis.local/fhir/Medication/6fc01162-1e08-4231-97d3-f19ed8d3d848",
                                "resource": {
                                    "resourceType": "Medication",
                                    "id": "6fc01162-1e08-4231-97d3-f19ed8d3d848",
                                    "meta": {
                                        "profile": [
                                            "https://fhir.kbv.de/StructureDefinition/KBV_PR_ERP_Medication_PZN|1.0.1"
                                        ]
                                    },
                                    "extension": [
                                        {
                                            "url": "https://fhir.kbv.de/StructureDefinition/KBV_EX_ERP_Medication_Category",
                                            "valueCoding": {
                                                "system": "https://fhir.kbv.de/CodeSystem/KBV_CS_ERP_Medication_Category",
                                                "code": "00"
                                            }
                                        },
                                        {
                                            "url": "https://fhir.kbv.de/StructureDefinition/KBV_EX_ERP_Medication_Vaccine",
                                            "valueBoolean": false
                                        },
                                        {
                                            "url": "http://fhir.de/StructureDefinition/normgroesse",
                                            "valueCode": "N1"
                                        }
                                    ],
                                    "code": {
                                        "coding": [
                                            {
                                                "system": "http://fhir.de/CodeSystem/ifa/pzn",
                                                "code": "01044459"
                                            }
                                        ],
                                        "text": "Alendronsaeure STADA 70mg TAB N2 4 St"
                                    },
                                    "form": {
                                        "coding": [
                                            {
                                                "system": "https://fhir.kbv.de/CodeSystem/KBV_CS_SFHIR_KBV_DARREICHUNGSFORM",
                                                "code": "TAB"
                                            }
                                        ]
                                    }
                                }
                            },
                            {
                                "fullUrl": "http://pvs.praxis.local/fhir/Patient/fbc28d81-cd86-4733-9e10-4fabe7b0f913",
                                "resource": {
                                    "resourceType": "Patient",
                                    "id": "fbc28d81-cd86-4733-9e10-4fabe7b0f913",
                                    "meta": {
                                        "profile": [
                                            "https://fhir.kbv.de/StructureDefinition/KBV_PR_FOR_Patient|1.0.3"
                                        ]
                                    },
                                    "identifier": [
                                        {
                                            "use": "official",
                                            "type": {
                                                "coding": [
                                                    {
                                                        "system": "http://fhir.de/CodeSystem/identifier-type-de-basis",
                                                        "code": "GKV"
                                                    }
                                                ]
                                            },
                                            "system": "http://fhir.de/NamingSystem/gkv/kvid-10",
                                            "value": "X999999999"
                                        }
                                    ],
                                    "name": [
                                        {
                                            "use": "official",
                                            "family": "Bella Kaiser",
                                            "_family": {
                                                "extension": [
                                                    {
                                                        "url": "http://hl7.org/fhir/StructureDefinition/humanname-own-name",
                                                        "valueString": "Kaiser"
                                                    }
                                                ]
                                            },
                                            "given": [
                                                "Bella"
                                            ]
                                        }
                                    ],
                                    "birthDate": "1996-07-01",
                                    "address": [
                                        {
                                            "type": "both",
                                            "line": [
                                                "Bahnhofstr. 34"
                                            ],
                                            "_line": [
                                                {
                                                    "extension": [
                                                        {
                                                            "url": "http://hl7.org/fhir/StructureDefinition/iso21090-ADXP-streetName",
                                                            "valueString": "Bahnhofstr."
                                                        },
                                                        {
                                                            "url": "http://hl7.org/fhir/StructureDefinition/iso21090-ADXP-houseNumber",
                                                            "valueString": "34"
                                                        }
                                                    ]
                                                }
                                            ],
                                            "city": "Plaidt",
                                            "postalCode": "56637",
                                            "country": "D"
                                        }
                                    ]
                                }
                            },
                            {
                                "fullUrl": "http://pvs.praxis.local/fhir/Practitioner/0ec6a786-8fb9-418f-ac99-7959f8318070",
                                "resource": {
                                    "resourceType": "Practitioner",
                                    "id": "0ec6a786-8fb9-418f-ac99-7959f8318070",
                                    "meta": {
                                        "profile": [
                                            "https://fhir.kbv.de/StructureDefinition/KBV_PR_FOR_Practitioner|1.0.3"
                                        ]
                                    },
                                    "identifier": [
                                        {
                                            "use": "official",
                                            "type": {
                                                "coding": [
                                                    {
                                                        "system": "http://terminology.hl7.org/CodeSystem/v2-0203",
                                                        "code": "LANR"
                                                    }
                                                ]
                                            },
                                            "system": "https://fhir.kbv.de/NamingSystem/KBV_NS_Base_ANR",
                                            "value": "111111101"
                                        }
                                    ],
                                    "name": [
                                        {
                                            "use": "official",
                                            "family": "Dr. Max Allgemeinmediziner Mustermann",
                                            "_family": {
                                                "extension": [
                                                    {
                                                        "url": "http://hl7.org/fhir/StructureDefinition/humanname-own-name",
                                                        "valueString": "Mustermann"
                                                    }
                                                ]
                                            },
                                            "given": [
                                                "Max"
                                            ],
                                            "prefix": [
                                                "Dr."
                                            ],
                                            "_prefix": [
                                                {
                                                    "extension": [
                                                        {
                                                            "url": "http://hl7.org/fhir/StructureDefinition/iso21090-EN-qualifier",
                                                            "valueCode": "AC"
                                                        }
                                                    ]
                                                }
                                            ]
                                        }
                                    ],
                                    "qualification": [
                                        {
                                            "code": {
                                                "coding": [
                                                    {
                                                        "system": "https://fhir.kbv.de/CodeSystem/KBV_CS_FOR_Qualification_Type",
                                                        "code": "00"
                                                    }
                                                ]
                                            }
                                        },
                                        {
                                            "code": {
                                                "text": "Arzt"
                                            }
                                        }
                                    ]
                                }
                            },
                            {
                                "fullUrl": "http://pvs.praxis.local/fhir/Organization/c7e94c6e-7694-4a5d-af68-5e476005a46d",
                                "resource": {
                                    "resourceType": "Organization",
                                    "id": "c7e94c6e-7694-4a5d-af68-5e476005a46d",
                                    "meta": {
                                        "profile": [
                                            "https://fhir.kbv.de/StructureDefinition/KBV_PR_FOR_Organization|1.0.3"
                                        ]
                                    },
                                    "identifier": [
                                        {
                                            "use": "official",
                                            "type": {
                                                "coding": [
                                                    {
                                                        "system": "http://terminology.hl7.org/CodeSystem/v2-0203",
                                                        "code": "BSNR"
                                                    }
                                                ]
                                            },
                                            "system": "https://fhir.kbv.de/NamingSystem/KBV_NS_Base_BSNR",
                                            "value": "471234567"
                                        }
                                    ],
                                    "name": "Zentral",
                                    "telecom": [
                                        {
                                            "system": "phone",
                                            "value": "026180000"
                                        }
                                    ],
                                    "address": [
                                        {
                                            "type": "both",
                                            "line": [
                                                "Maria Trost 25"
                                            ],
                                            "_line": [
                                                {
                                                    "extension": [
                                                        {
                                                            "url": "http://hl7.org/fhir/StructureDefinition/iso21090-ADXP-streetName",
                                                            "valueString": "Maria Trost"
                                                        },
                                                        {
                                                            "url": "http://hl7.org/fhir/StructureDefinition/iso21090-ADXP-houseNumber",
                                                            "valueString": "25"
                                                        }
                                                    ]
                                                }
                                            ],
                                            "city": "Koblenz",
                                            "postalCode": "56070",
                                            "country": "D"
                                        }
                                    ]
                                }
                            },
                            {
                                "fullUrl": "http://pvs.praxis.local/fhir/Coverage/e269cecc-7643-48f8-845c-df8df292f12b",
                                "resource": {
                                    "resourceType": "Coverage",
                                    "id": "e269cecc-7643-48f8-845c-df8df292f12b",
                                    "meta": {
                                        "profile": [
                                            "https://fhir.kbv.de/StructureDefinition/KBV_PR_FOR_Coverage|1.0.3"
                                        ]
                                    },
                                    "extension": [
                                        {
                                            "url": "http://fhir.de/StructureDefinition/gkv/besondere-personengruppe",
                                            "valueCoding": {
                                                "system": "https://fhir.kbv.de/CodeSystem/KBV_CS_SFHIR_KBV_PERSONENGRUPPE",
                                                "code": "00"
                                            }
                                        },
                                        {
                                            "url": "http://fhir.de/StructureDefinition/gkv/dmp-kennzeichen",
                                            "valueCoding": {
                                                "system": "https://fhir.kbv.de/CodeSystem/KBV_CS_SFHIR_KBV_DMP",
                                                "code": "00"
                                            }
                                        },
                                        {
                                            "url": "http://fhir.de/StructureDefinition/gkv/versichertenart",
                                            "valueCoding": {
                                                "system": "https://fhir.kbv.de/CodeSystem/KBV_CS_SFHIR_KBV_VERSICHERTENSTATUS",
                                                "code": "1"
                                            }
                                        },
                                        {
                                            "url": "http://fhir.de/StructureDefinition/gkv/wop",
                                            "valueCoding": {
                                                "system": "https://fhir.kbv.de/CodeSystem/KBV_CS_SFHIR_ITA_WOP",
                                                "code": "00"
                                            }
                                        }
                                    ],
                                    "status": "active",
                                    "type": {
                                        "coding": [
                                            {
                                                "system": "http://fhir.de/CodeSystem/versicherungsart-de-basis",
                                                "code": "GKV"
                                            }
                                        ]
                                    },
                                    "beneficiary": {
                                        "reference": "urn:uuid:fbc28d81-cd86-4733-9e10-4fabe7b0f913"
                                    },
                                    "payor": [
                                        {
                                            "identifier": {
                                                "use": "official",
                                                "type": {
                                                    "coding": [
                                                        {
                                                            "system": "http://terminology.hl7.org/CodeSystem/v2-0203",
                                                            "code": "XX"
                                                        }
                                                    ]
                                                },
                                                "system": "http://fhir.de/NamingSystem/arge-ik/iknr",
                                                "value": "105330226"
                                            },
                                            "display": "DAK-GESUNDHEIT"
                                        }
                                    ]
                                }
                            }
                        ]
                    }
                },
                {
                    "accessCode": "cf28804d6dc7ea803e65cd9d6a4f81f44c86b73facf4affa8e255e85cbe27508",
                    "bundle": {
                        "resourceType": "Bundle",
                        "id": "ee4601e6-46c3-4689-b3db-04c4bda1a04a",
                        "meta": {
                            "profile": [
                                "https://fhir.kbv.de/StructureDefinition/KBV_PR_ERP_Bundle|1.0.1"
                            ]
                        },
                        "identifier": {
                            "system": "https://gematik.de/fhir/NamingSystem/PrescriptionID",
                            "value": "160.001.678.447.000.61"
                        },
                        "type": "document",
                        "timestamp": "2021-06-30T11:33:23.885+02:00",
                        "entry": [
                            {
                                "fullUrl": "http://pvs.praxis.local/fhir/Composition/1556a28f-61ec-48b1-8e7b-c5a747af455d",
                                "resource": {
                                    "resourceType": "Composition",
                                    "id": "1556a28f-61ec-48b1-8e7b-c5a747af455d",
                                    "meta": {
                                        "profile": [
                                            "https://fhir.kbv.de/StructureDefinition/KBV_PR_ERP_Composition|1.0.1"
                                        ]
                                    },
                                    "extension": [
                                        {
                                            "url": "https://fhir.kbv.de/StructureDefinition/KBV_EX_FOR_Legal_basis",
                                            "valueCoding": {
                                                "system": "https://fhir.kbv.de/CodeSystem/KBV_CS_SFHIR_KBV_STATUSKENNZEICHEN",
                                                "code": "00"
                                            }
                                        }
                                    ],
                                    "status": "final",
                                    "type": {
                                        "coding": [
                                            {
                                                "system": "https://fhir.kbv.de/CodeSystem/KBV_CS_SFHIR_KBV_FORMULAR_ART",
                                                "code": "e16A"
                                            }
                                        ]
                                    },
                                    "subject": {
                                        "reference": "Patient/1faab4d1-030a-4445-a329-785eb5c6810c"
                                    },
                                    "date": "2021-06-30T11:33:23+02:00",
                                    "author": [
                                        {
                                            "reference": "Practitioner/049b18f5-f81d-4afe-a079-aed18e0a6cd7",
                                            "type": "Practitioner"
                                        },
                                        {
                                            "type": "Device",
                                            "identifier": {
                                                "system": "https://fhir.kbv.de/NamingSystem/KBV_NS_FOR_Pruefnummer",
                                                "value": "Y/1/1807/36/112"
                                            }
                                        }
                                    ],
                                    "title": "elektronische Arzneimittelverordnung",
                                    "custodian": {
                                        "reference": "Organization/26f69423-ed19-49a6-a121-d15fee7b3d56"
                                    },
                                    "section": [
                                        {
                                            "code": {
                                                "coding": [
                                                    {
                                                        "system": "https://fhir.kbv.de/CodeSystem/KBV_CS_ERP_Section_Type",
                                                        "code": "Prescription"
                                                    }
                                                ]
                                            },
                                            "entry": [
                                                {
                                                    "reference": "MedicationRequest/e40aa1bc-8d4b-405e-90a5-7213815c7b16"
                                                }
                                            ]
                                        },
                                        {
                                            "code": {
                                                "coding": [
                                                    {
                                                        "system": "https://fhir.kbv.de/CodeSystem/KBV_CS_ERP_Section_Type",
                                                        "code": "Coverage"
                                                    }
                                                ]
                                            },
                                            "entry": [
                                                {
                                                    "reference": "Coverage/f330d546-a9ef-492a-95f6-f97603914958"
                                                }
                                            ]
                                        }
                                    ]
                                }
                            },
                            {
                                "fullUrl": "http://pvs.praxis.local/fhir/MedicationRequest/e40aa1bc-8d4b-405e-90a5-7213815c7b16",
                                "resource": {
                                    "resourceType": "MedicationRequest",
                                    "id": "e40aa1bc-8d4b-405e-90a5-7213815c7b16",
                                    "meta": {
                                        "profile": [
                                            "https://fhir.kbv.de/StructureDefinition/KBV_PR_ERP_Prescription|1.0.1"
                                        ]
                                    },
                                    "extension": [
                                        {
                                            "url": "https://fhir.kbv.de/StructureDefinition/KBV_EX_ERP_StatusCoPayment",
                                            "valueCoding": {
                                                "system": "https://fhir.kbv.de/CodeSystem/KBV_CS_ERP_StatusCoPayment",
                                                "code": "1"
                                            }
                                        },
                                        {
                                            "url": "https://fhir.kbv.de/StructureDefinition/KBV_EX_ERP_EmergencyServicesFee",
                                            "valueBoolean": false
                                        },
                                        {
                                            "url": "https://fhir.kbv.de/StructureDefinition/KBV_EX_ERP_BVG",
                                            "valueBoolean": false
                                        },
                                        {
                                            "url": "https://fhir.kbv.de/StructureDefinition/KBV_EX_ERP_Multiple_Prescription",
                                            "extension": [
                                                {
                                                    "url": "Kennzeichen",
                                                    "valueBoolean": false
                                                }
                                            ]
                                        }
                                    ],
                                    "status": "active",
                                    "intent": "order",
                                    "medicationReference": {
                                        "reference": "urn:uuid:668a9bf3-d6b6-46a0-a44e-8feb9f0fd963"
                                    },
                                    "subject": {
                                        "reference": "urn:uuid:1faab4d1-030a-4445-a329-785eb5c6810c"
                                    },
                                    "authoredOn": "2021-06-30",
                                    "requester": {
                                        "reference": "urn:uuid:049b18f5-f81d-4afe-a079-aed18e0a6cd7"
                                    },
                                    "insurance": [
                                        {
                                            "reference": "urn:uuid:f330d546-a9ef-492a-95f6-f97603914958"
                                        }
                                    ],
                                    "note": [
                                        {
                                            "text": "eRezept"
                                        }
                                    ],
                                    "dosageInstruction": [
                                        {
                                            "extension": [
                                                {
                                                    "url": "https://fhir.kbv.de/StructureDefinition/KBV_EX_ERP_DosageFlag",
                                                    "valueBoolean": true
                                                }
                                            ],
                                            "text": ">>eRezept<<"
                                        }
                                    ],
                                    "dispenseRequest": {
                                        "validityPeriod": {
                                            "start": "2021-06-30T00:00:00+02:00"
                                        },
                                        "quantity": {
                                            "value": 1,
                                            "system": "http://unitsofmeasure.org",
                                            "code": "{Package}"
                                        }
                                    },
                                    "substitution": {
                                        "allowedBoolean": true
                                    }
                                }
                            },
                            {
                                "fullUrl": "http://pvs.praxis.local/fhir/Medication/668a9bf3-d6b6-46a0-a44e-8feb9f0fd963",
                                "resource": {
                                    "resourceType": "Medication",
                                    "id": "668a9bf3-d6b6-46a0-a44e-8feb9f0fd963",
                                    "meta": {
                                        "profile": [
                                            "https://fhir.kbv.de/StructureDefinition/KBV_PR_ERP_Medication_PZN|1.0.1"
                                        ]
                                    },
                                    "extension": [
                                        {
                                            "url": "https://fhir.kbv.de/StructureDefinition/KBV_EX_ERP_Medication_Category",
                                            "valueCoding": {
                                                "system": "https://fhir.kbv.de/CodeSystem/KBV_CS_ERP_Medication_Category",
                                                "code": "00"
                                            }
                                        },
                                        {
                                            "url": "https://fhir.kbv.de/StructureDefinition/KBV_EX_ERP_Medication_Vaccine",
                                            "valueBoolean": false
                                        },
                                        {
                                            "url": "http://fhir.de/StructureDefinition/normgroesse",
                                            "valueCode": "N1"
                                        }
                                    ],
                                    "code": {
                                        "coding": [
                                            {
                                                "system": "http://fhir.de/CodeSystem/ifa/pzn",
                                                "code": "11105601"
                                            }
                                        ],
                                        "text": "Amlodipin Besil STADA 10mg TAB N2 50 St"
                                    },
                                    "form": {
                                        "coding": [
                                            {
                                                "system": "https://fhir.kbv.de/CodeSystem/KBV_CS_SFHIR_KBV_DARREICHUNGSFORM",
                                                "code": "TAB"
                                            }
                                        ]
                                    }
                                }
                            },
                            {
                                "fullUrl": "http://pvs.praxis.local/fhir/Patient/1faab4d1-030a-4445-a329-785eb5c6810c",
                                "resource": {
                                    "resourceType": "Patient",
                                    "id": "1faab4d1-030a-4445-a329-785eb5c6810c",
                                    "meta": {
                                        "profile": [
                                            "https://fhir.kbv.de/StructureDefinition/KBV_PR_FOR_Patient|1.0.3"
                                        ]
                                    },
                                    "identifier": [
                                        {
                                            "use": "official",
                                            "type": {
                                                "coding": [
                                                    {
                                                        "system": "http://fhir.de/CodeSystem/identifier-type-de-basis",
                                                        "code": "GKV"
                                                    }
                                                ]
                                            },
                                            "system": "http://fhir.de/NamingSystem/gkv/kvid-10",
                                            "value": "X999999999"
                                        }
                                    ],
                                    "name": [
                                        {
                                            "use": "official",
                                            "family": "Bella Kaiser",
                                            "_family": {
                                                "extension": [
                                                    {
                                                        "url": "http://hl7.org/fhir/StructureDefinition/humanname-own-name",
                                                        "valueString": "Kaiser"
                                                    }
                                                ]
                                            },
                                            "given": [
                                                "Bella"
                                            ]
                                        }
                                    ],
                                    "birthDate": "1996-07-01",
                                    "address": [
                                        {
                                            "type": "both",
                                            "line": [
                                                "Bahnhofstr. 34"
                                            ],
                                            "_line": [
                                                {
                                                    "extension": [
                                                        {
                                                            "url": "http://hl7.org/fhir/StructureDefinition/iso21090-ADXP-streetName",
                                                            "valueString": "Bahnhofstr."
                                                        },
                                                        {
                                                            "url": "http://hl7.org/fhir/StructureDefinition/iso21090-ADXP-houseNumber",
                                                            "valueString": "34"
                                                        }
                                                    ]
                                                }
                                            ],
                                            "city": "Plaidt",
                                            "postalCode": "56637",
                                            "country": "D"
                                        }
                                    ]
                                }
                            },
                            {
                                "fullUrl": "http://pvs.praxis.local/fhir/Practitioner/049b18f5-f81d-4afe-a079-aed18e0a6cd7",
                                "resource": {
                                    "resourceType": "Practitioner",
                                    "id": "049b18f5-f81d-4afe-a079-aed18e0a6cd7",
                                    "meta": {
                                        "profile": [
                                            "https://fhir.kbv.de/StructureDefinition/KBV_PR_FOR_Practitioner|1.0.3"
                                        ]
                                    },
                                    "identifier": [
                                        {
                                            "use": "official",
                                            "type": {
                                                "coding": [
                                                    {
                                                        "system": "http://terminology.hl7.org/CodeSystem/v2-0203",
                                                        "code": "LANR"
                                                    }
                                                ]
                                            },
                                            "system": "https://fhir.kbv.de/NamingSystem/KBV_NS_Base_ANR",
                                            "value": "111111101"
                                        }
                                    ],
                                    "name": [
                                        {
                                            "use": "official",
                                            "family": "Dr. Max Allgemeinmediziner Mustermann",
                                            "_family": {
                                                "extension": [
                                                    {
                                                        "url": "http://hl7.org/fhir/StructureDefinition/humanname-own-name",
                                                        "valueString": "Mustermann"
                                                    }
                                                ]
                                            },
                                            "given": [
                                                "Max"
                                            ],
                                            "prefix": [
                                                "Dr."
                                            ],
                                            "_prefix": [
                                                {
                                                    "extension": [
                                                        {
                                                            "url": "http://hl7.org/fhir/StructureDefinition/iso21090-EN-qualifier",
                                                            "valueCode": "AC"
                                                        }
                                                    ]
                                                }
                                            ]
                                        }
                                    ],
                                    "qualification": [
                                        {
                                            "code": {
                                                "coding": [
                                                    {
                                                        "system": "https://fhir.kbv.de/CodeSystem/KBV_CS_FOR_Qualification_Type",
                                                        "code": "00"
                                                    }
                                                ]
                                            }
                                        },
                                        {
                                            "code": {
                                                "text": "Arzt"
                                            }
                                        }
                                    ]
                                }
                            },
                            {
                                "fullUrl": "http://pvs.praxis.local/fhir/Organization/26f69423-ed19-49a6-a121-d15fee7b3d56",
                                "resource": {
                                    "resourceType": "Organization",
                                    "id": "26f69423-ed19-49a6-a121-d15fee7b3d56",
                                    "meta": {
                                        "profile": [
                                            "https://fhir.kbv.de/StructureDefinition/KBV_PR_FOR_Organization|1.0.3"
                                        ]
                                    },
                                    "identifier": [
                                        {
                                            "use": "official",
                                            "type": {
                                                "coding": [
                                                    {
                                                        "system": "http://terminology.hl7.org/CodeSystem/v2-0203",
                                                        "code": "BSNR"
                                                    }
                                                ]
                                            },
                                            "system": "https://fhir.kbv.de/NamingSystem/KBV_NS_Base_BSNR",
                                            "value": "471234567"
                                        }
                                    ],
                                    "name": "Zentral",
                                    "telecom": [
                                        {
                                            "system": "phone",
                                            "value": "026180000"
                                        }
                                    ],
                                    "address": [
                                        {
                                            "type": "both",
                                            "line": [
                                                "Maria Trost 25"
                                            ],
                                            "_line": [
                                                {
                                                    "extension": [
                                                        {
                                                            "url": "http://hl7.org/fhir/StructureDefinition/iso21090-ADXP-streetName",
                                                            "valueString": "Maria Trost"
                                                        },
                                                        {
                                                            "url": "http://hl7.org/fhir/StructureDefinition/iso21090-ADXP-houseNumber",
                                                            "valueString": "25"
                                                        }
                                                    ]
                                                }
                                            ],
                                            "city": "Koblenz",
                                            "postalCode": "56070",
                                            "country": "D"
                                        }
                                    ]
                                }
                            },
                            {
                                "fullUrl": "http://pvs.praxis.local/fhir/Coverage/f330d546-a9ef-492a-95f6-f97603914958",
                                "resource": {
                                    "resourceType": "Coverage",
                                    "id": "f330d546-a9ef-492a-95f6-f97603914958",
                                    "meta": {
                                        "profile": [
                                            "https://fhir.kbv.de/StructureDefinition/KBV_PR_FOR_Coverage|1.0.3"
                                        ]
                                    },
                                    "extension": [
                                        {
                                            "url": "http://fhir.de/StructureDefinition/gkv/besondere-personengruppe",
                                            "valueCoding": {
                                                "system": "https://fhir.kbv.de/CodeSystem/KBV_CS_SFHIR_KBV_PERSONENGRUPPE",
                                                "code": "00"
                                            }
                                        },
                                        {
                                            "url": "http://fhir.de/StructureDefinition/gkv/dmp-kennzeichen",
                                            "valueCoding": {
                                                "system": "https://fhir.kbv.de/CodeSystem/KBV_CS_SFHIR_KBV_DMP",
                                                "code": "00"
                                            }
                                        },
                                        {
                                            "url": "http://fhir.de/StructureDefinition/gkv/versichertenart",
                                            "valueCoding": {
                                                "system": "https://fhir.kbv.de/CodeSystem/KBV_CS_SFHIR_KBV_VERSICHERTENSTATUS",
                                                "code": "1"
                                            }
                                        },
                                        {
                                            "url": "http://fhir.de/StructureDefinition/gkv/wop",
                                            "valueCoding": {
                                                "system": "https://fhir.kbv.de/CodeSystem/KBV_CS_SFHIR_ITA_WOP",
                                                "code": "00"
                                            }
                                        }
                                    ],
                                    "status": "active",
                                    "type": {
                                        "coding": [
                                            {
                                                "system": "http://fhir.de/CodeSystem/versicherungsart-de-basis",
                                                "code": "GKV"
                                            }
                                        ]
                                    },
                                    "beneficiary": {
                                        "reference": "urn:uuid:1faab4d1-030a-4445-a329-785eb5c6810c"
                                    },
                                    "payor": [
                                        {
                                            "identifier": {
                                                "use": "official",
                                                "type": {
                                                    "coding": [
                                                        {
                                                            "system": "http://terminology.hl7.org/CodeSystem/v2-0203",
                                                            "code": "XX"
                                                        }
                                                    ]
                                                },
                                                "system": "http://fhir.de/NamingSystem/arge-ik/iknr",
                                                "value": "105330226"
                                            },
                                            "display": "DAK-GESUNDHEIT"
                                        }
                                    ]
                                }
                            }
                        ]
                    }
                }
            ],
            "pdfDocument": {
                "content": ""
            }
        }
    ]}