{"type": "ERezeptWithDocuments", "payload": 
    [
        {
            "bundleWithAccessCodeOrThrowables": [
                {
                    "accessCode": "e1d3bb4d6d4d39e1806a0fd95f7153da1f5c7d27f3e468ddef2d6f6a5aca0074",
                    "bundle": {
                        "resourceType": "Bundle",
                        "id": "ba621f3b-1aa6-4296-af8c-9198c442fb4c",
                        "meta": {
                            "lastUpdated": "2021-09-15T20:26:29.556+02:00",
                            "profile": [
                                "https://fhir.kbv.de/StructureDefinition/KBV_PR_ERP_Bundle|1.0.1"
                            ]
                        },
                        "identifier": {
                            "system": "https://gematik.de/fhir/NamingSystem/PrescriptionID",
                            "value": "160.002.232.119.100.24"
                        },
                        "type": "document",
                        "timestamp": "2021-09-15T20:26:29.556+02:00",
                        "entry": [
                            {
                                "fullUrl": "http://pvs.praxis.local/fhir/Composition/d015c9cc-7a66-4a34-9fd6-3b26a454456e",
                                "resource": {
                                    "resourceType": "Composition",
                                    "id": "d015c9cc-7a66-4a34-9fd6-3b26a454456e",
                                    "meta": {
                                        "profile": [
                                            "https://fhir.kbv.de/StructureDefinition/KBV_PR_ERP_Composition|1.0.1"
                                        ]
                                    },
                                    "extension": [
                                        {
                                            "url": "https://fhir.kbv.de/StructureDefinition/KBV_EX_FOR_Legal_basis",
                                            "valueCoding": {
                                                "system": "https://fhir.kbv.de/CodeSystem/KBV_CS_SFHIR_KBV_STATUSKENNZEICHEN",
                                                "code": "00"
                                            }
                                        }
                                    ],
                                    "status": "final",
                                    "type": {
                                        "coding": [
                                            {
                                                "system": "https://fhir.kbv.de/CodeSystem/KBV_CS_SFHIR_KBV_FORMULAR_ART",
                                                "code": "e16A"
                                            }
                                        ]
                                    },
                                    "subject": {
                                        "reference": "Patient/fe8b3d41-fadf-4ad4-8a7f-741eb2e6f7a9"
                                    },
                                    "date": "2021-09-15T20:26:29+02:00",
                                    "author": [
                                        {
                                            "reference": "Practitioner/e00c7c0c-c040-4024-8457-4a63cbe1c14a",
                                            "type": "Practitioner"
                                        },
                                        {
                                            "type": "Device",
                                            "identifier": {
                                                "system": "https://fhir.kbv.de/NamingSystem/KBV_NS_FOR_Pruefnummer",
                                                "value": "Y/400/1810/36/031"
                                            }
                                        }
                                    ],
                                    "title": "elektronische Arzneimittelverordnung",
                                    "custodian": {
                                        "reference": "Organization/fdb746bc-5e5f-46a7-bd0a-0a09b51918f8"
                                    },
                                    "section": [
                                        {
                                            "code": {
                                                "coding": [
                                                    {
                                                        "system": "https://fhir.kbv.de/CodeSystem/KBV_CS_ERP_Section_Type",
                                                        "code": "Prescription"
                                                    }
                                                ]
                                            },
                                            "entry": [
                                                {
                                                    "reference": "MedicationRequest/0b400f3f-cdfe-4345-986c-0e3f49170557"
                                                }
                                            ]
                                        },
                                        {
                                            "code": {
                                                "coding": [
                                                    {
                                                        "system": "https://fhir.kbv.de/CodeSystem/KBV_CS_ERP_Section_Type",
                                                        "code": "Coverage"
                                                    }
                                                ]
                                            },
                                            "entry": [
                                                {
                                                    "reference": "Coverage/519e2c8a-ab61-4b9d-aae8-225534492b81"
                                                }
                                            ]
                                        }
                                    ]
                                }
                            },
                            {
                                "fullUrl": "http://pvs.praxis.local/fhir/Patient/fe8b3d41-fadf-4ad4-8a7f-741eb2e6f7a9",
                                "resource": {
                                    "resourceType": "Patient",
                                    "id": "fe8b3d41-fadf-4ad4-8a7f-741eb2e6f7a9",
                                    "meta": {
                                        "profile": [
                                            "https://fhir.kbv.de/StructureDefinition/KBV_PR_FOR_Patient|1.0.3"
                                        ]
                                    },
                                    "identifier": [
                                        {
                                            "type": {
                                                "coding": [
                                                    {
                                                        "system": "http://fhir.de/CodeSystem/identifier-type-de-basis",
                                                        "code": "GKV"
                                                    }
                                                ]
                                            },
                                            "system": "http://fhir.de/NamingSystem/gkv/kvid-10",
                                            "value": "S040464113"
                                        }
                                    ],
                                    "name": [
                                        {
                                            "use": "official",
                                            "family": "Graf Freiherr von Schaumberg",
                                            "_family": {
                                                "extension": [
                                                    {
                                                        "url": "http://fhir.de/StructureDefinition/humanname-namenszusatz",
                                                        "valueString": "Graf Freiherr"
                                                    },
                                                    {
                                                        "url": "http://hl7.org/fhir/StructureDefinition/humanname-own-prefix",
                                                        "valueString": "von"
                                                    },
                                                    {
                                                        "url": "http://hl7.org/fhir/StructureDefinition/humanname-own-name",
                                                        "valueString": "Schaumberg"
                                                    }
                                                ]
                                            },
                                            "given": [
                                                "Karl-Friederich"
                                            ],
                                            "prefix": [
                                                "Prof. Dr."
                                            ],
                                            "_prefix": [
                                                {
                                                    "extension": [
                                                        {
                                                            "url": "http://hl7.org/fhir/StructureDefinition/iso21090-EN-qualifier",
                                                            "valueCode": "AC"
                                                        }
                                                    ]
                                                }
                                            ]
                                        }
                                    ],
                                    "birthDate": "1964-04-04",
                                    "address": [
                                        {
                                            "type": "both",
                                            "line": [
                                                "Siegburger Str. 155"
                                            ],
                                            "_line": [
                                                {
                                                    "extension": [
                                                        {
                                                            "url": "http://hl7.org/fhir/StructureDefinition/iso21090-ADXP-streetName",
                                                            "valueString": "Siegburger Str."
                                                        },
                                                        {
                                                            "url": "http://hl7.org/fhir/StructureDefinition/iso21090-ADXP-houseNumber",
                                                            "valueString": "155"
                                                        }
                                                    ]
                                                }
                                            ],
                                            "city": "Köln",
                                            "postalCode": "51105",
                                            "country": "D"
                                        }
                                    ]
                                }
                            },
                            {
                                "fullUrl": "http://pvs.praxis.local/fhir/Medication/54447e8c-d667-42c9-8b79-298dd8ffb933",
                                "resource": {
                                    "resourceType": "Medication",
                                    "id": "54447e8c-d667-42c9-8b79-298dd8ffb933",
                                    "meta": {
                                        "profile": [
                                            "https://fhir.kbv.de/StructureDefinition/KBV_PR_ERP_Medication_PZN|1.0.1"
                                        ]
                                    },
                                    "extension": [
                                        {
                                            "url": "https://fhir.kbv.de/StructureDefinition/KBV_EX_ERP_Medication_Category",
                                            "valueCoding": {
                                                "system": "https://fhir.kbv.de/CodeSystem/KBV_CS_ERP_Medication_Category",
                                                "code": "00"
                                            }
                                        },
                                        {
                                            "url": "https://fhir.kbv.de/StructureDefinition/KBV_EX_ERP_Medication_Vaccine",
                                            "valueBoolean": false
                                        },
                                        {
                                            "url": "http://fhir.de/StructureDefinition/normgroesse",
                                            "valueCode": "N2"
                                        }
                                    ],
                                    "code": {
                                        "coding": [
                                            {
                                                "system": "http://fhir.de/CodeSystem/ifa/pzn",
                                                "code": "11126514"
                                            }
                                        ],
                                        "text": "Entresto® 49 mg/51 mg 56 Filmtbl."
                                    },
                                    "form": {
                                        "coding": [
                                            {
                                                "system": "https://fhir.kbv.de/CodeSystem/KBV_CS_SFHIR_KBV_DARREICHUNGSFORM",
                                                "code": "FTA"
                                            }
                                        ]
                                    }
                                }
                            },
                            {
                                "fullUrl": "http://pvs.praxis.local/fhir/MedicationRequest/0b400f3f-cdfe-4345-986c-0e3f49170557",
                                "resource": {
                                    "resourceType": "MedicationRequest",
                                    "id": "0b400f3f-cdfe-4345-986c-0e3f49170557",
                                    "meta": {
                                        "profile": [
                                            "https://fhir.kbv.de/StructureDefinition/KBV_PR_ERP_Prescription|1.0.1"
                                        ]
                                    },
                                    "extension": [
                                        {
                                            "url": "https://fhir.kbv.de/StructureDefinition/KBV_EX_ERP_StatusCoPayment",
                                            "valueCoding": {
                                                "system": "https://fhir.kbv.de/CodeSystem/KBV_CS_ERP_StatusCoPayment",
                                                "code": "0"
                                            }
                                        },
                                        {
                                            "url": "https://fhir.kbv.de/StructureDefinition/KBV_EX_ERP_EmergencyServicesFee",
                                            "valueBoolean": false
                                        },
                                        {
                                            "url": "https://fhir.kbv.de/StructureDefinition/KBV_EX_ERP_BVG",
                                            "valueBoolean": false
                                        },
                                        {
                                            "url": "https://fhir.kbv.de/StructureDefinition/KBV_EX_ERP_Multiple_Prescription",
                                            "extension": [
                                                {
                                                    "url": "Kennzeichen",
                                                    "valueBoolean": false
                                                }
                                            ]
                                        }
                                    ],
                                    "status": "active",
                                    "intent": "order",
                                    "medicationReference": {
                                        "reference": "Medication/54447e8c-d667-42c9-8b79-298dd8ffb933"
                                    },
                                    "subject": {
                                        "reference": "Patient/fe8b3d41-fadf-4ad4-8a7f-741eb2e6f7a9"
                                    },
                                    "authoredOn": "2021-09-15",
                                    "requester": {
                                        "reference": "Practitioner/e00c7c0c-c040-4024-8457-4a63cbe1c14a"
                                    },
                                    "insurance": [
                                        {
                                            "reference": "Coverage/519e2c8a-ab61-4b9d-aae8-225534492b81"
                                        }
                                    ],
                                    "note": [
                                        {
                                            "text": "bitte Dosierung deutlich mitgeben"
                                        }
                                    ],
                                    "dosageInstruction": [
                                        {
                                            "extension": [
                                                {
                                                    "url": "https://fhir.kbv.de/StructureDefinition/KBV_EX_ERP_DosageFlag",
                                                    "valueBoolean": true
                                                }
                                            ],
                                            "text": "0-0-1-0"
                                        }
                                    ],
                                    "dispenseRequest": {
                                        "quantity": {
                                            "value": 1,
                                            "system": "http://unitsofmeasure.org",
                                            "code": "{Package}"
                                        }
                                    },
                                    "substitution": {
                                        "allowedBoolean": true
                                    }
                                }
                            },
                            {
                                "fullUrl": "http://pvs.praxis.local/fhir/Practitioner/e00c7c0c-c040-4024-8457-4a63cbe1c14a",
                                "resource": {
                                    "resourceType": "Practitioner",
                                    "id": "e00c7c0c-c040-4024-8457-4a63cbe1c14a",
                                    "meta": {
                                        "profile": [
                                            "https://fhir.kbv.de/StructureDefinition/KBV_PR_FOR_Practitioner|1.0.3"
                                        ]
                                    },
                                    "identifier": [
                                        {
                                            "type": {
                                                "coding": [
                                                    {
                                                        "system": "http://terminology.hl7.org/CodeSystem/v2-0203",
                                                        "code": "LANR"
                                                    }
                                                ]
                                            },
                                            "system": "https://fhir.kbv.de/NamingSystem/KBV_NS_Base_ANR",
                                            "value": "838382201"
                                        }
                                    ],
                                    "name": [
                                        {
                                            "use": "official",
                                            "family": "More",
                                            "_family": {
                                                "extension": [
                                                    {
                                                        "url": "http://hl7.org/fhir/StructureDefinition/humanname-own-name",
                                                        "valueString": "More"
                                                    }
                                                ]
                                            },
                                            "given": [
                                                "Annie"
                                            ],
                                            "prefix": [
                                                "Dr."
                                            ],
                                            "_prefix": [
                                                {
                                                    "extension": [
                                                        {
                                                            "url": "http://hl7.org/fhir/StructureDefinition/iso21090-EN-qualifier",
                                                            "valueCode": "AC"
                                                        }
                                                    ]
                                                }
                                            ]
                                        }
                                    ],
                                    "qualification": [
                                        {
                                            "code": {
                                                "coding": [
                                                    {
                                                        "system": "https://fhir.kbv.de/CodeSystem/KBV_CS_FOR_Qualification_Type",
                                                        "code": "00"
                                                    }
                                                ]
                                            }
                                        },
                                        {
                                            "code": {
                                                "text": "Fachärztin für Allgemeinmedizin"
                                            }
                                        }
                                    ]
                                }
                            },
                            {
                                "fullUrl": "http://pvs.praxis.local/fhir/Organization/fdb746bc-5e5f-46a7-bd0a-0a09b51918f8",
                                "resource": {
                                    "resourceType": "Organization",
                                    "id": "fdb746bc-5e5f-46a7-bd0a-0a09b51918f8",
                                    "meta": {
                                        "profile": [
                                            "https://fhir.kbv.de/StructureDefinition/KBV_PR_FOR_Organization|1.0.3"
                                        ]
                                    },
                                    "identifier": [
                                        {
                                            "type": {
                                                "coding": [
                                                    {
                                                        "system": "http://terminology.hl7.org/CodeSystem/v2-0203",
                                                        "code": "BSNR"
                                                    }
                                                ]
                                            },
                                            "system": "https://fhir.kbv.de/NamingSystem/KBV_NS_Base_BSNR",
                                            "value": "241234601"
                                        }
                                    ],
                                    "name": "Praxis Annie More",
                                    "telecom": [
                                        {
                                            "system": "phone",
                                            "value": "0211 / 1111111"
                                        },
                                        {
                                            "system": "fax",
                                            "value": "0211 / 2222222"
                                        },
                                        {
                                            "system": "email",
                                            "value": "AM@Testpraxis.de"
                                        }
                                    ],
                                    "address": [
                                        {
                                            "type": "both",
                                            "line": [
                                                "Musterstr. 1"
                                            ],
                                            "_line": [
                                                {
                                                    "extension": [
                                                        {
                                                            "url": "http://hl7.org/fhir/StructureDefinition/iso21090-ADXP-houseNumber",
                                                            "valueString": "1"
                                                        },
                                                        {
                                                            "url": "http://hl7.org/fhir/StructureDefinition/iso21090-ADXP-streetName",
                                                            "valueString": "Musterstr."
                                                        }
                                                    ]
                                                }
                                            ],
                                            "city": "Düsseldorf",
                                            "postalCode": "40474",
                                            "country": "D"
                                        }
                                    ]
                                }
                            },
                            {
                                "fullUrl": "http://pvs.praxis.local/fhir/Coverage/519e2c8a-ab61-4b9d-aae8-225534492b81",
                                "resource": {
                                    "resourceType": "Coverage",
                                    "id": "519e2c8a-ab61-4b9d-aae8-225534492b81",
                                    "meta": {
                                        "profile": [
                                            "https://fhir.kbv.de/StructureDefinition/KBV_PR_FOR_Coverage|1.0.3"
                                        ]
                                    },
                                    "extension": [
                                        {
                                            "url": "http://fhir.de/StructureDefinition/gkv/besondere-personengruppe",
                                            "valueCoding": {
                                                "system": "https://fhir.kbv.de/CodeSystem/KBV_CS_SFHIR_KBV_PERSONENGRUPPE",
                                                "code": "00"
                                            }
                                        },
                                        {
                                            "url": "http://fhir.de/StructureDefinition/gkv/dmp-kennzeichen",
                                            "valueCoding": {
                                                "system": "https://fhir.kbv.de/CodeSystem/KBV_CS_SFHIR_KBV_DMP",
                                                "code": "00"
                                            }
                                        },
                                        {
                                            "url": "http://fhir.de/StructureDefinition/gkv/wop",
                                            "valueCoding": {
                                                "system": "https://fhir.kbv.de/CodeSystem/KBV_CS_SFHIR_ITA_WOP",
                                                "code": "38"
                                            }
                                        },
                                        {
                                            "url": "http://fhir.de/StructureDefinition/gkv/versichertenart",
                                            "valueCoding": {
                                                "system": "https://fhir.kbv.de/CodeSystem/KBV_CS_SFHIR_KBV_VERSICHERTENSTATUS",
                                                "code": "1"
                                            }
                                        }
                                    ],
                                    "status": "active",
                                    "type": {
                                        "coding": [
                                            {
                                                "system": "http://fhir.de/CodeSystem/versicherungsart-de-basis",
                                                "code": "GKV"
                                            }
                                        ]
                                    },
                                    "beneficiary": {
                                        "reference": "Patient/fe8b3d41-fadf-4ad4-8a7f-741eb2e6f7a9"
                                    },
                                    "payor": [
                                        {
                                            "identifier": {
                                                "system": "http://fhir.de/NamingSystem/arge-ik/iknr",
                                                "value": "104212059"
                                            },
                                            "display": "AOK Rheinland/Hamburg"
                                        }
                                    ]
                                }
                            }
                        ]
                    },
                    "signedBundle": {
                        "content": ""
                    }
                }
            ],
            "pdfDocument": {
                "content": ""
            }
        }
    ]}